File: SnIn/cusn/output_xrd/Cu6Sn5HKL.csv
H,K,L,Distance,2theta/TOF,Mult
1,1,-3,2.9652,30.1388,1
-2,-2,1,2.9651,30.1399,1
0,2,2,2.916,30.6597,4
3,1,-2,2.8932,30.9074,4
2,2,1,2.8251,31.6717,1
1,-1,3,2.7622,32.4126,4
4,0,-1,2.7364,32.7267,2
-4,0,0,2.7264,32.8501,2
2,2,-2,2.6756,33.492,1
2,0,3,2.616,34.2784,2
4,0,-2,2.5505,35.1871,2
3,-1,2,2.5472,35.2341,4
4,0,1,2.5265,35.5324,2
2,-2,2,2.4785,36.2442,4
3,-1,-3,2.4718,36.3459,4
0,0,-4,2.4312,36.9746,2
0,2,3,2.4219,37.1218,4
1,3,0,2.3712,37.9455,4
2,0,-4,2.3589,38.1509,2
1,1,-4,2.3258,38.7154,1
1,-3,-1,2.3215,38.7899,4
-2,2,3,2.3138,38.9242,4
-1,-3,-1,2.2862,39.4135,4
4,0,-3,2.2643,39.8107,2
-4,0,-2,2.2364,40.3288,2
-1,-1,-4,2.1928,41.1666,1
4,-2,-1,2.1881,41.259,4
4,2,0,2.183,41.3598,4
1,3,-2,2.1598,41.8248,4
3,-1,3,2.1533,41.957,4
-2,2,-3,2.125,42.5428,4
5,-1,-1,2.1074,42.9156,4
-1,-3,-2,2.1038,42.9927,4
3,1,-4,2.0896,43.2995,4
4,2,-2,2.0895,43.3017,4
-4,-2,-1,2.0763,43.591,4
5,1,-2,2.0309,44.6172,4
0,-2,4,2.0224,44.8149,4
-3,3,0,2.0198,44.8757,4
-3,-3,1,2.012,45.0592,1
-5,-1,-1,1.984,45.7309,4
-2,2,4,1.9802,45.8237,4
4,0,-4,1.9706,46.0597,2
-1,3,3,1.9449,46.7042,4
-2,0,5,1.9277,47.146,2
-3,-3,2,1.9242,47.2369,1
4,2,-3,1.9232,47.263,4
-4,-2,-2,1.9061,47.7132,4
1,1,-5,1.8995,47.8893,1
5,-1,-3,1.8869,48.2294,4
-1,3,-3,1.8841,48.3056,4
6,0,-1,1.8382,49.592,2
3,1,4,1.8308,49.806,4
-5,1,-2,1.8251,49.9722,4
0,4,0,1.822,50.0631,2
-6,0,0,1.8176,50.1927,2
-3,-3,-2,1.8114,50.3765,1
1,1,5,1.8076,50.4898,1
-6,0,2,1.7951,50.8663,2
0,-4,1,1.7908,50.9972,4
3,-3,-3,1.7837,51.2149,4
-3,-1,5,1.7802,51.3229,4
-2,0,-5,1.7491,52.3038,2
6,0,1,1.7392,52.6243,2
-4,-2,4,1.7334,52.814,4
-2,4,0,1.728,52.9919,4
1,-3,-4,1.7265,53.0415,4
2,-4,-1,1.7158,53.3984,4
5,1,-4,1.7138,53.4657,4
-4,0,5,1.7122,53.5196,2
0,-4,-2,1.7061,53.7263,4
2,2,-5,1.7039,53.8012,1
-6,0,3,1.7003,53.9244,2
4,0,4,1.6905,54.2625,4
2,-4,1,1.6873,54.3739,4
1,-3,4,1.6699,54.9881,4
2,-4,-2,1.6538,55.5694,4
-3,3,-3,1.6523,55.6243,4
5,-1,3,1.6495,55.7269,4
6,-2,-1,1.6412,56.0335,4
-5,-3,1,1.6313,56.4038,4
6,-2,0,1.6265,56.5852,4
2,0,-6,1.623,56.7183,2
-3,-3,4,1.6229,56.7221,1
0,0,6,1.6208,56.8023,2
-6,2,2,1.6103,57.2067,4
2,4,2,1.6039,57.4562,4
-1,1,6,1.6001,57.6054,4
-5,-3,2,1.595,57.8069,4
0,4,-3,1.5883,58.074,4
2,-2,5,1.5768,58.5385,4
6,0,-4,1.5761,58.567,2
5,3,1,1.572,58.7347,4
6,-2,1,1.5696,58.8333,4
2,4,-3,1.5566,59.3736,4
4,2,-5,1.5496,59.669,4
5,-1,-5,1.5409,60.0404,4
-6,-2,3,1.5408,60.0447,4
3,-1,-6,1.5372,60.1998,4
4,-2,4,1.5335,60.3601,4
1,3,-5,1.5289,60.5607,4
-7,-1,0,1.5235,60.798,4
-5,-3,3,1.5223,60.851,4
-7,-1,2,1.5202,60.944,4
-4,4,1,1.5165,61.1086,4
4,4,0,1.5148,61.1845,1
-4,0,6,1.4976,61.9642,2
2,4,3,1.4951,62.0793,4
-3,-3,-4,1.4924,62.2041,1
-6,0,-3,1.4909,62.2737,2
5,-3,2,1.4893,62.348,4
-2,2,6,1.4826,62.6616,4
-4,4,2,1.4825,62.6663,4
0,2,-6,1.4809,62.7417,4
1,3,5,1.4798,62.7936,4
4,4,1,1.4778,62.8883,1
-7,-1,-1,1.4718,63.1742,4
7,1,-3,1.4659,63.458,4
-3,-3,5,1.4646,63.5209,1
0,-4,-4,1.458,63.8423,4
-6,-2,4,1.4466,64.4057,4
1,5,0,1.4447,64.5007,4
-6,0,5,1.4428,64.5959,2
-2,4,4,1.4419,64.6411,4
1,-5,-1,1.4333,65.0767,4
5,-3,-4,1.427,65.3997,4
-1,5,-1,1.4248,65.5133,4
4,4,-3,1.4195,65.7888,1
4,-4,2,1.4125,66.1565,4
2,0,-7,1.3984,66.9107,2
-7,-1,-2,1.3954,67.0736,4
-1,5,2,1.3926,67.2264,4
5,-3,3,1.3892,67.4129,4
7,1,-4,1.3879,67.4845,4
-4,-2,6,1.3851,67.6393,4
5,1,-6,1.3827,67.7726,4
-2,2,-6,1.3811,67.8618,4
6,2,3,1.3799,67.9289,4
8,0,-1,1.3793,67.9624,2
-1,5,-2,1.3773,68.0746,4
4,2,5,1.371,68.4307,4
-8,0,2,1.3682,68.5902,2
-8,0,0,1.3632,68.8771,2
1,-3,-6,1.3593,69.1027,4
-3,-5,0,1.3528,69.4823,4
-3,5,1,1.3505,69.6177,4
3,-1,-7,1.346,69.8843,4
3,3,5,1.345,69.9438,1
-6,-2,5,1.3414,70.1591,4
4,4,-4,1.3378,70.3758,1
8,0,-3,1.3316,70.7524,2
0,-4,5,1.3297,70.8687,4
-1,5,3,1.3296,70.8748,4
2,-4,-5,1.3241,71.2139,4
3,5,-2,1.323,71.2822,4
7,-3,-1,1.3224,71.3195,4
3,3,-6,1.3201,71.4628,1
1,3,6,1.3178,71.6067,4
-6,0,6,1.3137,71.8649,2
-7,3,0,1.3114,72.0106,4
-1,5,-3,1.3097,72.1188,4
7,-3,-2,1.3093,72.1442,4
-4,0,-6,1.308,72.2272,2
2,2,-7,1.3056,72.381,1
2,0,7,1.2994,72.7815,2
0,2,7,1.2981,72.8661,4
7,-1,-5,1.2974,72.9118,4
-6,4,1,1.294,73.1344,4
-8,-2,1,1.29,73.3982,4
6,4,0,1.2868,73.6107,4
3,5,2,1.2846,73.7576,4
5,3,4,1.2839,73.8045,4
-8,-2,2,1.2808,74.0129,4
6,4,-2,1.2787,74.1548,4
7,-3,1,1.278,74.2023,4
-8,2,0,1.2768,74.2837,4
-8,0,4,1.2752,74.3927,2
-3,5,3,1.2746,74.4336,4
-7,3,3,1.2741,74.4678,4
-6,-2,-4,1.2736,74.502,4
-8,0,-2,1.2632,75.2211,2
-2,-4,-5,1.2617,75.3261,4
-6,4,-1,1.258,75.5865,4
1,-5,-4,1.2532,75.9273,4
-8,-2,3,1.2507,76.1061,4
4,4,-5,1.2477,76.3219,1
5,-1,-7,1.2441,76.5827,4
6,-4,-3,1.2431,76.6555,4
4,4,4,1.2392,76.9409,1
6,0,5,1.2368,77.1177,2
-6,-2,6,1.2359,77.1842,4
1,5,4,1.231,77.5487,4
7,-3,2,1.227,77.8491,4
-3,-5,-3,1.2239,78.0837,4
-7,3,4,1.2219,78.2359,4
-3,1,-7,1.2187,78.4808,4
-5,3,6,1.2183,78.5116,4
1,-3,-7,1.2164,78.6579,4
0,0,8,1.2156,78.7197,2
5,5,-1,1.2153,78.7429,1
0,-6,0,1.2146,78.7971,2
-3,5,4,1.2119,79.007,4
5,5,0,1.2118,79.0148,1
0,4,6,1.2109,79.085,4
9,-1,-1,1.2087,79.2573,4
-8,0,5,1.2065,79.4304,2
0,6,-1,1.2053,79.5252,4
8,-2,-4,1.2037,79.652,4
-5,-5,2,1.2001,79.939,1
5,1,6,1.1983,80.0834,4
-6,0,7,1.1956,80.301,2
9,-1,0,1.1953,80.3253,4
3,1,-8,1.1936,80.4631,4
-8,-2,-2,1.1935,80.4712,4
3,3,-7,1.193,80.5118,1
6,-4,-4,1.192,80.5933,4
-5,-5,-1,1.1902,80.7403,1
2,6,0,1.1856,81.1188,4
2,-6,-1,1.1816,81.4512,4
-9,1,3,1.1809,81.5097,4
4,0,-8,1.1794,81.6354,2
0,6,2,1.1784,81.7194,4
1,-1,8,1.1727,82.2021,4
-2,-6,-1,1.1722,82.2447,4
1,5,-5,1.1712,82.3302,4
5,-5,-3,1.1682,82.5877,4
-4,0,-7,1.1676,82.6395,2
9,-1,1,1.1652,82.8471,4
-7,3,-3,1.1646,82.8992,4
-2,-2,8,1.1629,83.0473,1
-2,6,2,1.1607,83.2397,4
7,3,-5,1.1588,83.4068,4
4,4,-6,1.1569,83.5746,1
-3,5,-4,1.1545,83.7876,4
-6,4,-3,1.1538,83.85,4
-5,5,-2,1.1531,83.9125,4
2,0,8,1.1496,84.2265,2
1,-5,5,1.1486,84.3168,4
8,2,-5,1.1454,84.607,4
9,1,-4,1.1432,84.8078,4
-2,6,-2,1.1431,84.817,4
-3,-5,5,1.1415,84.9638,4
0,6,3,1.1374,85.3426,4
6,2,-7,1.136,85.4729,4
8,2,3,1.1338,85.6785,4
-8,0,6,1.1321,85.8381,2
-6,4,5,1.1311,85.9324,4
6,0,6,1.127,86.3213,4
2,-6,-3,1.1256,86.455,4
-5,-1,8,1.1249,86.5221,4
5,5,-4,1.1234,86.6661,1
4,-2,-8,1.1221,86.7914,4
7,-1,5,1.1206,86.9366,4
-5,-3,7,1.1203,86.9656,4
8,0,4,1.1182,87.1699,2
4,2,7,1.1119,87.7895,4
-4,6,1,1.1102,87.9584,4
-4,6,0,1.1095,88.0282,4
2,-4,-7,1.1093,88.0482,4
5,-5,3,1.1047,88.5103,4
-10,0,1,1.1026,88.7231,2
-3,-3,-7,1.1017,88.8147,1
2,6,3,1.1016,88.8249,4
-10,0,2,1.1007,88.9167,2
8,4,-1,1.0997,89.019,4
4,-6,-2,1.0966,89.3379,4
-2,-2,-8,1.0964,89.3585,1
9,-1,-5,1.0948,89.5243,4
-4,-6,-1,1.0947,89.5347,4
-9,3,1,1.0943,89.5762,4
8,4,-2,1.094,89.6074,4
2,0,-9,1.0923,89.7847,2
-8,4,0,1.0915,89.8684,4
-3,-1,-8,1.0907,89.9523,4
7,-3,-6,1.0905,89.9733,4
-1,-5,6,1.0895,90.0784,4
-5,3,-6,1.0866,90.3851,4
0,6,-4,1.0865,90.3957,4
5,1,7,1.0857,90.4808,4
-10,0,3,1.085,90.5553,2
-9,3,0,1.0843,90.6301,4
-3,-3,8,1.083,90.7692,1
3,5,5,1.082,90.8766,4
-8,-2,6,1.0812,90.9627,4
0,0,-9,1.0805,91.0383,2
-2,-6,4,1.0799,91.1031,4
-1,1,9,1.0797,91.1248,4
-6,2,-6,1.0766,91.4618,4
-8,4,3,1.075,91.6369,4
-9,-3,3,1.0735,91.8018,4
-4,-6,3,1.0703,92.1559,4
5,5,-5,1.0702,92.167,1
3,-5,-6,1.069,92.3007,4
1,-5,6,1.0677,92.446,4
1,3,8,1.0674,92.4796,4
4,-6,2,1.0673,92.4908,4
-10,0,-1,1.0658,92.6594,2
6,4,-6,1.0656,92.6819,4
7,5,0,1.0643,92.8287,4
-7,-5,2,1.0632,92.9533,4
4,-4,6,1.0625,93.0329,4
-9,-3,-1,1.0617,93.1239,4
-2,-4,-7,1.0579,93.5595,4
-8,0,7,1.0573,93.6287,2
-10,2,1,1.0553,93.8604,4
-10,2,2,1.0537,94.0467,4
2,-6,4,1.0519,94.2573,4
5,5,4,1.0495,94.54,1
-1,1,-9,1.0484,94.6702,4
7,5,1,1.0463,94.9201,4
-9,3,4,1.045,95.0755,4
-6,-2,8,1.0448,95.0995,4
8,4,-4,1.0447,95.1115,4
-7,5,3,1.0441,95.1835,4
-8,0,-5,1.0437,95.2316,2
10,2,-3,1.0399,95.6915,4
8,4,2,1.0381,95.9112,4
-1,-7,0,1.0364,96.1198,4
0,2,-9,1.0359,96.1814,4
-7,-1,-6,1.0354,96.2431,4
-4,-6,4,1.034,96.4163,4
-1,7,1,1.0321,96.6525,4
5,3,-8,1.0309,96.8025,4
-4,6,-3,1.0302,96.8902,4
1,7,1,1.029,97.0411,4
-9,-3,-2,1.0288,97.0663,4
-7,1,8,1.0282,97.142,4
2,-6,-5,1.0276,97.2179,4
6,4,5,1.0233,97.7657,4
5,1,-9,1.023,97.8042,4
-7,3,7,1.0216,97.9844,4
-10,0,5,1.0202,98.1654,2
-4,-2,9,1.0193,98.2822,4
-7,-5,-2,1.0177,98.4907,4
-1,7,2,1.0166,98.6347,4
-8,2,7,1.0154,98.7924,4
-7,5,4,1.0148,98.8714,4
-9,1,-4,1.0137,99.0168,4
-6,-6,1,1.0134,99.0565,1
-5,-5,6,1.0127,99.1494,1
-1,-5,7,1.0117,99.2825,4
0,4,-8,1.0112,99.3492,4
-1,7,-2,1.0106,99.4293,4
6,6,0,1.0099,99.5231,1
-9,-3,5,1.0076,99.8327,4